image2,percentSelf,old,sham,RT_Self1.thisRepN,RT_Self1.thisTrialN,RT_Self1.thisN,RT_Self1.thisIndex,Other1.thisRepN,Other1.thisTrialN,Other1.thisN,Other1.thisIndex,RT_Self2.thisRepN,RT_Self2.thisTrialN,RT_Self2.thisN,RT_Self2.thisIndex,Other2.thisRepN,Other2.thisTrialN,Other2.thisN,Other2.thisIndex,RT_Self3.thisRepN,RT_Self3.thisTrialN,RT_Self3.thisN,RT_Self3.thisIndex,Other3.thisRepN,Other3.thisTrialN,Other3.thisN,Other3.thisIndex,RT_Self4.thisRepN,RT_Self4.thisTrialN,RT_Self4.thisN,RT_Self4.thisIndex,Other4.thisRepN,Other4.thisTrialN,Other4.thisN,Other4.thisIndex,spacebar.keys,spacebar.rt,trigger1.keys,trigger1.rt,key_resp_2.keys,key_resp_2.rt,date,frameRate,expName,session,participant,
,,,,,,,,,,,,,,,,,,,,,,,,,,,,,,,,,,,,space,3.46765359555,,,,,2017_Jun_16_1333,59.936349711,ESOM_task_v1_nocontrol_MURFI,001,3046,
,,,,,,,,,,,,,,,,,,,,,,,,,,,,,,,,,,,,,,5,14.9306062159,,,2017_Jun_16_1333,59.936349711,ESOM_task_v1_nocontrol_MURFI,001,3046,
CurrentSubject2/ha01.jpg,1,CurrentSubject2/ha01.jpg,0.1,0,0,0,0,,,,,,,,,,,,,,,,,,,,,,,,,,,,,,,,,,,2017_Jun_16_1333,59.936349711,ESOM_task_v1_nocontrol_MURFI,001,3046,
CurrentSubject2/ha01.jpg,0.9,CurrentSubject2/ha03.jpg,0.2,0,1,1,1,,,,,,,,,,,,,,,,,,,,,,,,,,,,,,,,,,,2017_Jun_16_1333,59.936349711,ESOM_task_v1_nocontrol_MURFI,001,3046,
CurrentSubject2/ha01.jpg,0.85,CurrentSubject2/ha04.jpg,0.3,0,2,2,2,,,,,,,,,,,,,,,,,,,,,,,,,,,,,,,,,,,2017_Jun_16_1333,59.936349711,ESOM_task_v1_nocontrol_MURFI,001,3046,
CurrentSubject2/ha01.jpg,0.75,CurrentSubject2/ha06.jpg,0.2,0,3,3,3,,,,,,,,,,,,,,,,,,,,,,,,,,,,,,,,,,,2017_Jun_16_1333,59.936349711,ESOM_task_v1_nocontrol_MURFI,001,3046,
CurrentSubject2/ha01.jpg,0.8,CurrentSubject2/ha05.jpg,0.3,0,4,4,4,,,,,,,,,,,,,,,,,,,,,,,,,,,,,,,,,,,2017_Jun_16_1333,59.936349711,ESOM_task_v1_nocontrol_MURFI,001,3046,
CurrentSubject2/ha01.jpg,0.85,CurrentSubject2/ha04.jpg,0.2,0,5,5,5,,,,,,,,,,,,,,,,,,,,,,,,,,,,,,,,,,,2017_Jun_16_1333,59.936349711,ESOM_task_v1_nocontrol_MURFI,001,3046,
CurrentSubject2/ha01.jpg,0.95,CurrentSubject2/ha02.jpg,0.1,0,6,6,6,,,,,,,,,,,,,,,,,,,,,,,,,,,,,,,,,,,2017_Jun_16_1333,59.936349711,ESOM_task_v1_nocontrol_MURFI,001,3046,
CurrentSubject2/ha01.jpg,1,CurrentSubject2/ha01.jpg,0,0,7,7,7,,,,,,,,,,,,,,,,,,,,,,,,,,,,,,,,,,,2017_Jun_16_1333,59.936349711,ESOM_task_v1_nocontrol_MURFI,001,3046,
CurrentSubject2/ha01.jpg,0.9,CurrentSubject2/ha03.jpg,-0.1,0,8,8,8,,,,,,,,,,,,,,,,,,,,,,,,,,,,,,,,,,,2017_Jun_16_1333,59.936349711,ESOM_task_v1_nocontrol_MURFI,001,3046,
CurrentSubject2/ha01.jpg,0.95,CurrentSubject2/ha02.jpg,-0.2,0,9,9,9,,,,,,,,,,,,,,,,,,,,,,,,,,,,,,,,,,,2017_Jun_16_1333,59.936349711,ESOM_task_v1_nocontrol_MURFI,001,3046,
CurrentSubject2/ha01.jpg,1,CurrentSubject2/ha01.jpg,0,0,10,10,10,,,,,,,,,,,,,,,,,,,,,,,,,,,,,,,,,,,2017_Jun_16_1333,59.936349711,ESOM_task_v1_nocontrol_MURFI,001,3046,
CurrentSubject2/ha01.jpg,0.9,CurrentSubject2/ha03.jpg,0.1,0,11,11,11,,,,,,,,,,,,,,,,,,,,,,,,,,,,,,,,,,,2017_Jun_16_1333,59.936349711,ESOM_task_v1_nocontrol_MURFI,001,3046,
CurrentSubject2/ha01.jpg,0.85,CurrentSubject2/ha04.jpg,0.2,0,12,12,12,,,,,,,,,,,,,,,,,,,,,,,,,,,,,,,,,,,2017_Jun_16_1333,59.936349711,ESOM_task_v1_nocontrol_MURFI,001,3046,
CurrentSubject2/ha01.jpg,0.8,CurrentSubject2/ha05.jpg,0.3,0,13,13,13,,,,,,,,,,,,,,,,,,,,,,,,,,,,,,,,,,,2017_Jun_16_1333,59.936349711,ESOM_task_v1_nocontrol_MURFI,001,3046,
CurrentSubject2/ha01.jpg,0.8,CurrentSubject2/ha05.jpg,0.2,0,14,14,14,,,,,,,,,,,,,,,,,,,,,,,,,,,,,,,,,,,2017_Jun_16_1333,59.936349711,ESOM_task_v1_nocontrol_MURFI,001,3046,
CurrentSubject2/ha01.jpg,0.75,CurrentSubject2/ha06.jpg,0.3,0,15,15,15,,,,,,,,,,,,,,,,,,,,,,,,,,,,,,,,,,,2017_Jun_16_1333,59.936349711,ESOM_task_v1_nocontrol_MURFI,001,3046,
CurrentSubject2/ha01.jpg,0.85,CurrentSubject2/ha04.jpg,0.2,0,16,16,16,,,,,,,,,,,,,,,,,,,,,,,,,,,,,,,,,,,2017_Jun_16_1333,59.936349711,ESOM_task_v1_nocontrol_MURFI,001,3046,
CurrentSubject2/ha01.jpg,0.9,CurrentSubject2/ha03.jpg,0.1,0,17,17,17,,,,,,,,,,,,,,,,,,,,,,,,,,,,,,,,,,,2017_Jun_16_1333,59.936349711,ESOM_task_v1_nocontrol_MURFI,001,3046,
CurrentSubject2/ha01.jpg,0.95,CurrentSubject2/ha02.jpg,0,0,18,18,18,,,,,,,,,,,,,,,,,,,,,,,,,,,,,,,,,,,2017_Jun_16_1333,59.936349711,ESOM_task_v1_nocontrol_MURFI,001,3046,
CurrentSubject2/ha01.jpg,1,CurrentSubject2/ha01.jpg,-0.1,0,19,19,19,,,,,,,,,,,,,,,,,,,,,,,,,,,,,,,,,,,2017_Jun_16_1333,59.936349711,ESOM_task_v1_nocontrol_MURFI,001,3046,
,,,,,,,,,,,,,,,,,,,,,,,,,,,,,,,,,,,,,,,,3,3.13354899734,2017_Jun_16_1333,59.936349711,ESOM_task_v1_nocontrol_MURFI,001,3046,
CurrentSubject2/ha21.jpg,0.15,CurrentSubject2/ha18.jpg,,,,,,0,0,0,9,,,,,,,,,,,,,,,,,,,,,,,,,,,,,,,2017_Jun_16_1333,59.936349711,ESOM_task_v1_nocontrol_MURFI,001,3046,
CurrentSubject2/ha21.jpg,0.1,CurrentSubject2/ha19.jpg,,,,,,0,1,1,11,,,,,,,,,,,,,,,,,,,,,,,,,,,,,,,2017_Jun_16_1333,59.936349711,ESOM_task_v1_nocontrol_MURFI,001,3046,
CurrentSubject2/ha21.jpg,0.1,CurrentSubject2/ha19.jpg,,,,,,0,2,2,1,,,,,,,,,,,,,,,,,,,,,,,,,,,,,,,2017_Jun_16_1333,59.936349711,ESOM_task_v1_nocontrol_MURFI,001,3046,
CurrentSubject2/ha21.jpg,0.1,CurrentSubject2/ha19.jpg,,,,,,0,3,3,8,,,,,,,,,,,,,,,,,,,,,,,,,,,,,,,2017_Jun_16_1333,59.936349711,ESOM_task_v1_nocontrol_MURFI,001,3046,
CurrentSubject2/ha21.jpg,0.25,CurrentSubject2/ha16.jpg,,,,,,0,4,4,3,,,,,,,,,,,,,,,,,,,,,,,,,,,,,,,2017_Jun_16_1333,59.936349711,ESOM_task_v1_nocontrol_MURFI,001,3046,
CurrentSubject2/ha21.jpg,0.15,CurrentSubject2/ha18.jpg,,,,,,0,5,5,2,,,,,,,,,,,,,,,,,,,,,,,,,,,,,,,2017_Jun_16_1333,59.936349711,ESOM_task_v1_nocontrol_MURFI,001,3046,
CurrentSubject2/ha21.jpg,0.05,CurrentSubject2/ha20.jpg,,,,,,0,6,6,6,,,,,,,,,,,,,,,,,,,,,,,,,,,,,,,2017_Jun_16_1333,59.936349711,ESOM_task_v1_nocontrol_MURFI,001,3046,
CurrentSubject2/ha21.jpg,0,CurrentSubject2/ha21.jpg,,,,,,0,7,7,7,,,,,,,,,,,,,,,,,,,,,,,,,,,,,,,2017_Jun_16_1333,59.936349711,ESOM_task_v1_nocontrol_MURFI,001,3046,
CurrentSubject2/ha21.jpg,0,CurrentSubject2/ha21.jpg,,,,,,0,8,8,0,,,,,,,,,,,,,,,,,,,,,,,,,,,,,,,2017_Jun_16_1333,59.936349711,ESOM_task_v1_nocontrol_MURFI,001,3046,
CurrentSubject2/ha21.jpg,0.15,CurrentSubject2/ha18.jpg,,,,,,0,9,9,5,,,,,,,,,,,,,,,,,,,,,,,,,,,,,,,2017_Jun_16_1333,59.936349711,ESOM_task_v1_nocontrol_MURFI,001,3046,
CurrentSubject2/ha21.jpg,0.2,CurrentSubject2/ha17.jpg,,,,,,0,10,10,4,,,,,,,,,,,,,,,,,,,,,,,,,,,,,,,2017_Jun_16_1333,59.936349711,ESOM_task_v1_nocontrol_MURFI,001,3046,
CurrentSubject2/ha21.jpg,0.2,CurrentSubject2/ha17.jpg,,,,,,0,11,11,10,,,,,,,,,,,,,,,,,,,,,,,,,,,,,,,2017_Jun_16_1333,59.936349711,ESOM_task_v1_nocontrol_MURFI,001,3046,
,,,,,,,,,,,,,,,,,,,,,,,,,,,,,,,,,,,,,,,,2,3.54963522428,2017_Jun_16_1333,59.936349711,ESOM_task_v1_nocontrol_MURFI,001,3046,
CurrentSubject2/ha01.jpg,0.95,CurrentSubject2/ha02.jpg,0.2,,,,,,,,,0,0,0,1,,,,,,,,,,,,,,,,,,,,,,,,,,,2017_Jun_16_1333,59.936349711,ESOM_task_v1_nocontrol_MURFI,001,3046,
CurrentSubject2/ha01.jpg,0.75,CurrentSubject2/ha06.jpg,-0.1,,,,,,,,,0,1,1,8,,,,,,,,,,,,,,,,,,,,,,,,,,,2017_Jun_16_1333,59.936349711,ESOM_task_v1_nocontrol_MURFI,001,3046,
CurrentSubject2/ha01.jpg,1,CurrentSubject2/ha01.jpg,-0.1,,,,,,,,,0,2,2,19,,,,,,,,,,,,,,,,,,,,,,,,,,,2017_Jun_16_1333,59.936349711,ESOM_task_v1_nocontrol_MURFI,001,3046,
CurrentSubject2/ha01.jpg,0.75,CurrentSubject2/ha06.jpg,0.3,,,,,,,,,0,3,3,15,,,,,,,,,,,,,,,,,,,,,,,,,,,2017_Jun_16_1333,59.936349711,ESOM_task_v1_nocontrol_MURFI,001,3046,
CurrentSubject2/ha01.jpg,0.95,CurrentSubject2/ha02.jpg,0.3,,,,,,,,,0,4,4,2,,,,,,,,,,,,,,,,,,,,,,,,,,,2017_Jun_16_1333,59.936349711,ESOM_task_v1_nocontrol_MURFI,001,3046,
CurrentSubject2/ha01.jpg,0.85,CurrentSubject2/ha04.jpg,0.2,,,,,,,,,0,5,5,5,,,,,,,,,,,,,,,,,,,,,,,,,,,2017_Jun_16_1333,59.936349711,ESOM_task_v1_nocontrol_MURFI,001,3046,
CurrentSubject2/ha01.jpg,0.95,CurrentSubject2/ha02.jpg,0,,,,,,,,,0,6,6,18,,,,,,,,,,,,,,,,,,,,,,,,,,,2017_Jun_16_1333,59.936349711,ESOM_task_v1_nocontrol_MURFI,001,3046,
CurrentSubject2/ha01.jpg,0.8,CurrentSubject2/ha05.jpg,0.2,,,,,,,,,0,7,7,16,,,,,,,,,,,,,,,,,,,,,,,,,,,2017_Jun_16_1333,59.936349711,ESOM_task_v1_nocontrol_MURFI,001,3046,
CurrentSubject2/ha01.jpg,0.9,CurrentSubject2/ha03.jpg,0.2,,,,,,,,,0,8,8,3,,,,,,,,,,,,,,,,,,,,,,,,,,,2017_Jun_16_1333,59.936349711,ESOM_task_v1_nocontrol_MURFI,001,3046,
CurrentSubject2/ha01.jpg,0.85,CurrentSubject2/ha04.jpg,-0.2,,,,,,,,,0,9,9,9,,,,,,,,,,,,,,,,,,,,,,,,,,,2017_Jun_16_1333,59.936349711,ESOM_task_v1_nocontrol_MURFI,001,3046,
CurrentSubject2/ha01.jpg,0.85,CurrentSubject2/ha04.jpg,0.1,,,,,,,,,0,10,10,17,,,,,,,,,,,,,,,,,,,,,,,,,,,2017_Jun_16_1333,59.936349711,ESOM_task_v1_nocontrol_MURFI,001,3046,
CurrentSubject2/ha01.jpg,0.8,CurrentSubject2/ha05.jpg,0.1,,,,,,,,,0,11,11,6,,,,,,,,,,,,,,,,,,,,,,,,,,,2017_Jun_16_1333,59.936349711,ESOM_task_v1_nocontrol_MURFI,001,3046,
CurrentSubject2/ha01.jpg,1,CurrentSubject2/ha01.jpg,0.1,,,,,,,,,0,12,12,0,,,,,,,,,,,,,,,,,,,,,,,,,,,2017_Jun_16_1333,59.936349711,ESOM_task_v1_nocontrol_MURFI,001,3046,
CurrentSubject2/ha01.jpg,0.9,CurrentSubject2/ha03.jpg,0.3,,,,,,,,,0,13,13,13,,,,,,,,,,,,,,,,,,,,,,,,,,,2017_Jun_16_1333,59.936349711,ESOM_task_v1_nocontrol_MURFI,001,3046,
CurrentSubject2/ha01.jpg,0.8,CurrentSubject2/ha05.jpg,0.2,,,,,,,,,0,14,14,14,,,,,,,,,,,,,,,,,,,,,,,,,,,2017_Jun_16_1333,59.936349711,ESOM_task_v1_nocontrol_MURFI,001,3046,
CurrentSubject2/ha01.jpg,0.85,CurrentSubject2/ha04.jpg,0.3,,,,,,,,,0,15,15,4,,,,,,,,,,,,,,,,,,,,,,,,,,,2017_Jun_16_1333,59.936349711,ESOM_task_v1_nocontrol_MURFI,001,3046,
CurrentSubject2/ha01.jpg,0.95,CurrentSubject2/ha02.jpg,0,,,,,,,,,0,16,16,10,,,,,,,,,,,,,,,,,,,,,,,,,,,2017_Jun_16_1333,59.936349711,ESOM_task_v1_nocontrol_MURFI,001,3046,
CurrentSubject2/ha01.jpg,0.95,CurrentSubject2/ha02.jpg,0.2,,,,,,,,,0,17,17,12,,,,,,,,,,,,,,,,,,,,,,,,,,,2017_Jun_16_1333,59.936349711,ESOM_task_v1_nocontrol_MURFI,001,3046,
CurrentSubject2/ha01.jpg,0.75,CurrentSubject2/ha06.jpg,0,,,,,,,,,0,18,18,7,,,,,,,,,,,,,,,,,,,,,,,,,,,2017_Jun_16_1333,59.936349711,ESOM_task_v1_nocontrol_MURFI,001,3046,
CurrentSubject2/ha01.jpg,1,CurrentSubject2/ha01.jpg,0.1,,,,,,,,,0,19,19,11,,,,,,,,,,,,,,,,,,,,,,,,,,,2017_Jun_16_1333,59.936349711,ESOM_task_v1_nocontrol_MURFI,001,3046,
,,,,,,,,,,,,,,,,,,,,,,,,,,,,,,,,,,,,,,,,3,3.01084193875,2017_Jun_16_1333,59.936349711,ESOM_task_v1_nocontrol_MURFI,001,3046,
CurrentSubject2/ha21.jpg,0.25,CurrentSubject2/ha16.jpg,,,,,,,,,,,,,,0,0,0,6,,,,,,,,,,,,,,,,,,,,,,,2017_Jun_16_1333,59.936349711,ESOM_task_v1_nocontrol_MURFI,001,3046,
CurrentSubject2/ha21.jpg,0.05,CurrentSubject2/ha20.jpg,,,,,,,,,,,,,,0,1,1,2,,,,,,,,,,,,,,,,,,,,,,,2017_Jun_16_1333,59.936349711,ESOM_task_v1_nocontrol_MURFI,001,3046,
CurrentSubject2/ha21.jpg,0,CurrentSubject2/ha21.jpg,,,,,,,,,,,,,,0,2,2,11,,,,,,,,,,,,,,,,,,,,,,,2017_Jun_16_1333,59.936349711,ESOM_task_v1_nocontrol_MURFI,001,3046,
CurrentSubject2/ha21.jpg,0.1,CurrentSubject2/ha19.jpg,,,,,,,,,,,,,,0,3,3,9,,,,,,,,,,,,,,,,,,,,,,,2017_Jun_16_1333,59.936349711,ESOM_task_v1_nocontrol_MURFI,001,3046,
CurrentSubject2/ha21.jpg,0,CurrentSubject2/ha21.jpg,,,,,,,,,,,,,,0,4,4,0,,,,,,,,,,,,,,,,,,,,,,,2017_Jun_16_1333,59.936349711,ESOM_task_v1_nocontrol_MURFI,001,3046,
CurrentSubject2/ha21.jpg,0.15,CurrentSubject2/ha18.jpg,,,,,,,,,,,,,,0,5,5,4,,,,,,,,,,,,,,,,,,,,,,,2017_Jun_16_1333,59.936349711,ESOM_task_v1_nocontrol_MURFI,001,3046,
CurrentSubject2/ha21.jpg,0.2,CurrentSubject2/ha17.jpg,,,,,,,,,,,,,,0,6,6,7,,,,,,,,,,,,,,,,,,,,,,,2017_Jun_16_1333,59.936349711,ESOM_task_v1_nocontrol_MURFI,001,3046,
CurrentSubject2/ha21.jpg,0.1,CurrentSubject2/ha19.jpg,,,,,,,,,,,,,,0,7,7,3,,,,,,,,,,,,,,,,,,,,,,,2017_Jun_16_1333,59.936349711,ESOM_task_v1_nocontrol_MURFI,001,3046,
CurrentSubject2/ha21.jpg,0.05,CurrentSubject2/ha20.jpg,,,,,,,,,,,,,,0,8,8,10,,,,,,,,,,,,,,,,,,,,,,,2017_Jun_16_1333,59.936349711,ESOM_task_v1_nocontrol_MURFI,001,3046,
CurrentSubject2/ha21.jpg,0.05,CurrentSubject2/ha20.jpg,,,,,,,,,,,,,,0,9,9,1,,,,,,,,,,,,,,,,,,,,,,,2017_Jun_16_1333,59.936349711,ESOM_task_v1_nocontrol_MURFI,001,3046,
CurrentSubject2/ha21.jpg,0.15,CurrentSubject2/ha18.jpg,,,,,,,,,,,,,,0,10,10,8,,,,,,,,,,,,,,,,,,,,,,,2017_Jun_16_1333,59.936349711,ESOM_task_v1_nocontrol_MURFI,001,3046,
CurrentSubject2/ha21.jpg,0.2,CurrentSubject2/ha17.jpg,,,,,,,,,,,,,,0,11,11,5,,,,,,,,,,,,,,,,,,,,,,,2017_Jun_16_1333,59.936349711,ESOM_task_v1_nocontrol_MURFI,001,3046,
,,,,,,,,,,,,,,,,,,,,,,,,,,,,,,,,,,,,,,,,None,,2017_Jun_16_1333,59.936349711,ESOM_task_v1_nocontrol_MURFI,001,3046,
CurrentSubject2/ha01.jpg,0.9,CurrentSubject2/ha03.jpg,-0.2,,,,,,,,,,,,,,,,,0,0,0,9,,,,,,,,,,,,,,,,,,,2017_Jun_16_1333,59.936349711,ESOM_task_v1_nocontrol_MURFI,001,3046,
CurrentSubject2/ha01.jpg,0.95,CurrentSubject2/ha02.jpg,0.3,,,,,,,,,,,,,,,,,0,1,1,4,,,,,,,,,,,,,,,,,,,2017_Jun_16_1333,59.936349711,ESOM_task_v1_nocontrol_MURFI,001,3046,
CurrentSubject2/ha01.jpg,0.85,CurrentSubject2/ha04.jpg,0,,,,,,,,,,,,,,,,,0,2,2,10,,,,,,,,,,,,,,,,,,,2017_Jun_16_1333,59.936349711,ESOM_task_v1_nocontrol_MURFI,001,3046,
CurrentSubject2/ha01.jpg,0.9,CurrentSubject2/ha03.jpg,0.1,,,,,,,,,,,,,,,,,0,3,3,17,,,,,,,,,,,,,,,,,,,2017_Jun_16_1333,59.936349711,ESOM_task_v1_nocontrol_MURFI,001,3046,
CurrentSubject2/ha01.jpg,0.9,CurrentSubject2/ha03.jpg,0.2,,,,,,,,,,,,,,,,,0,4,4,5,,,,,,,,,,,,,,,,,,,2017_Jun_16_1333,59.936349711,ESOM_task_v1_nocontrol_MURFI,001,3046,
CurrentSubject2/ha01.jpg,0.8,CurrentSubject2/ha05.jpg,0.2,,,,,,,,,,,,,,,,,0,5,5,12,,,,,,,,,,,,,,,,,,,2017_Jun_16_1333,59.936349711,ESOM_task_v1_nocontrol_MURFI,001,3046,
CurrentSubject2/ha01.jpg,1,CurrentSubject2/ha01.jpg,-0.1,,,,,,,,,,,,,,,,,0,6,6,8,,,,,,,,,,,,,,,,,,,2017_Jun_16_1333,59.936349711,ESOM_task_v1_nocontrol_MURFI,001,3046,
CurrentSubject2/ha01.jpg,0.8,CurrentSubject2/ha05.jpg,0,,,,,,,,,,,,,,,,,0,7,7,7,,,,,,,,,,,,,,,,,,,2017_Jun_16_1333,59.936349711,ESOM_task_v1_nocontrol_MURFI,001,3046,
CurrentSubject2/ha01.jpg,1,CurrentSubject2/ha01.jpg,0.2,,,,,,,,,,,,,,,,,0,8,8,3,,,,,,,,,,,,,,,,,,,2017_Jun_16_1333,59.936349711,ESOM_task_v1_nocontrol_MURFI,001,3046,
CurrentSubject2/ha01.jpg,0.95,CurrentSubject2/ha02.jpg,0.2,,,,,,,,,,,,,,,,,0,9,9,16,,,,,,,,,,,,,,,,,,,2017_Jun_16_1333,59.936349711,ESOM_task_v1_nocontrol_MURFI,001,3046,
CurrentSubject2/ha01.jpg,0.85,CurrentSubject2/ha04.jpg,0.3,,,,,,,,,,,,,,,,,0,10,10,13,,,,,,,,,,,,,,,,,,,2017_Jun_16_1333,59.936349711,ESOM_task_v1_nocontrol_MURFI,001,3046,
CurrentSubject2/ha01.jpg,1,CurrentSubject2/ha01.jpg,0.3,,,,,,,,,,,,,,,,,0,11,11,15,,,,,,,,,,,,,,,,,,,2017_Jun_16_1333,59.936349711,ESOM_task_v1_nocontrol_MURFI,001,3046,
CurrentSubject2/ha01.jpg,0.85,CurrentSubject2/ha04.jpg,0.2,,,,,,,,,,,,,,,,,0,12,12,1,,,,,,,,,,,,,,,,,,,2017_Jun_16_1333,59.936349711,ESOM_task_v1_nocontrol_MURFI,001,3046,
CurrentSubject2/ha01.jpg,0.8,CurrentSubject2/ha05.jpg,-0.1,,,,,,,,,,,,,,,,,0,13,13,19,,,,,,,,,,,,,,,,,,,2017_Jun_16_1333,59.936349711,ESOM_task_v1_nocontrol_MURFI,001,3046,
CurrentSubject2/ha01.jpg,0.75,CurrentSubject2/ha05.jpg,0.1,,,,,,,,,,,,,,,,,0,14,14,0,,,,,,,,,,,,,,,,,,,2017_Jun_16_1333,59.936349711,ESOM_task_v1_nocontrol_MURFI,001,3046,
CurrentSubject2/ha01.jpg,0.95,CurrentSubject2/ha02.jpg,0.2,,,,,,,,,,,,,,,,,0,15,15,14,,,,,,,,,,,,,,,,,,,2017_Jun_16_1333,59.936349711,ESOM_task_v1_nocontrol_MURFI,001,3046,
CurrentSubject2/ha01.jpg,0.95,CurrentSubject2/ha02.jpg,0.3,,,,,,,,,,,,,,,,,0,16,16,2,,,,,,,,,,,,,,,,,,,2017_Jun_16_1333,59.936349711,ESOM_task_v1_nocontrol_MURFI,001,3046,
CurrentSubject2/ha01.jpg,0.75,CurrentSubject2/ha06.jpg,0.1,,,,,,,,,,,,,,,,,0,17,17,11,,,,,,,,,,,,,,,,,,,2017_Jun_16_1333,59.936349711,ESOM_task_v1_nocontrol_MURFI,001,3046,
CurrentSubject2/ha01.jpg,0.85,CurrentSubject2/ha04.jpg,0,,,,,,,,,,,,,,,,,0,18,18,18,,,,,,,,,,,,,,,,,,,2017_Jun_16_1333,59.936349711,ESOM_task_v1_nocontrol_MURFI,001,3046,
CurrentSubject2/ha01.jpg,0.85,CurrentSubject2/ha04.jpg,0.1,,,,,,,,,,,,,,,,,0,19,19,6,,,,,,,,,,,,,,,,,,,2017_Jun_16_1333,59.936349711,ESOM_task_v1_nocontrol_MURFI,001,3046,
,,,,,,,,,,,,,,,,,,,,,,,,,,,,,,,,,,,,,,,,4,3.04484955643,2017_Jun_16_1333,59.936349711,ESOM_task_v1_nocontrol_MURFI,001,3046,
CurrentSubject2/ha21.jpg,0.05,CurrentSubject2/ha20.jpg,,,,,,,,,,,,,,,,,,,,,,0,0,0,2,,,,,,,,,,,,,,,2017_Jun_16_1333,59.936349711,ESOM_task_v1_nocontrol_MURFI,001,3046,
CurrentSubject2/ha21.jpg,0.25,CurrentSubject2/ha16.jpg,,,,,,,,,,,,,,,,,,,,,,0,1,1,0,,,,,,,,,,,,,,,2017_Jun_16_1333,59.936349711,ESOM_task_v1_nocontrol_MURFI,001,3046,
CurrentSubject2/ha21.jpg,0.2,CurrentSubject2/ha17.jpg,,,,,,,,,,,,,,,,,,,,,,0,2,2,7,,,,,,,,,,,,,,,2017_Jun_16_1333,59.936349711,ESOM_task_v1_nocontrol_MURFI,001,3046,
CurrentSubject2/ha21.jpg,0.05,CurrentSubject2/ha20.jpg,,,,,,,,,,,,,,,,,,,,,,0,3,3,4,,,,,,,,,,,,,,,2017_Jun_16_1333,59.936349711,ESOM_task_v1_nocontrol_MURFI,001,3046,
CurrentSubject2/ha21.jpg,0.15,CurrentSubject2/ha18.jpg,,,,,,,,,,,,,,,,,,,,,,0,4,4,8,,,,,,,,,,,,,,,2017_Jun_16_1333,59.936349711,ESOM_task_v1_nocontrol_MURFI,001,3046,
CurrentSubject2/ha21.jpg,0,CurrentSubject2/ha21.jpg,,,,,,,,,,,,,,,,,,,,,,0,5,5,3,,,,,,,,,,,,,,,2017_Jun_16_1333,59.936349711,ESOM_task_v1_nocontrol_MURFI,001,3046,
CurrentSubject2/ha21.jpg,0,CurrentSubject2/ha21.jpg,,,,,,,,,,,,,,,,,,,,,,0,6,6,11,,,,,,,,,,,,,,,2017_Jun_16_1333,59.936349711,ESOM_task_v1_nocontrol_MURFI,001,3046,
CurrentSubject2/ha21.jpg,0.1,CurrentSubject2/ha19.jpg,,,,,,,,,,,,,,,,,,,,,,0,7,7,9,,,,,,,,,,,,,,,2017_Jun_16_1333,59.936349711,ESOM_task_v1_nocontrol_MURFI,001,3046,
CurrentSubject2/ha21.jpg,0.15,CurrentSubject2/ha18.jpg,,,,,,,,,,,,,,,,,,,,,,0,8,8,1,,,,,,,,,,,,,,,2017_Jun_16_1333,59.936349711,ESOM_task_v1_nocontrol_MURFI,001,3046,
CurrentSubject2/ha21.jpg,0.15,CurrentSubject2/ha18.jpg,,,,,,,,,,,,,,,,,,,,,,0,9,9,6,,,,,,,,,,,,,,,2017_Jun_16_1333,59.936349711,ESOM_task_v1_nocontrol_MURFI,001,3046,
CurrentSubject2/ha21.jpg,0.05,CurrentSubject2/ha20.jpg,,,,,,,,,,,,,,,,,,,,,,0,10,10,10,,,,,,,,,,,,,,,2017_Jun_16_1333,59.936349711,ESOM_task_v1_nocontrol_MURFI,001,3046,
CurrentSubject2/ha21.jpg,0.1,CurrentSubject2/ha19.jpg,,,,,,,,,,,,,,,,,,,,,,0,11,11,5,,,,,,,,,,,,,,,2017_Jun_16_1333,59.936349711,ESOM_task_v1_nocontrol_MURFI,001,3046,
,,,,,,,,,,,,,,,,,,,,,,,,,,,,,,,,,,,,,,,,2,3.21652048474,2017_Jun_16_1333,59.936349711,ESOM_task_v1_nocontrol_MURFI,001,3046,
CurrentSubject2/ha01.jpg,0.8,CurrentSubject2/ha05.jpg,0.3,,,,,,,,,,,,,,,,,,,,,,,,,0,0,0,13,,,,,,,,,,,2017_Jun_16_1333,59.936349711,ESOM_task_v1_nocontrol_MURFI,001,3046,
CurrentSubject2/ha01.jpg,0.95,CurrentSubject2/ha02.jpg,0,,,,,,,,,,,,,,,,,,,,,,,,,0,1,1,10,,,,,,,,,,,2017_Jun_16_1333,59.936349711,ESOM_task_v1_nocontrol_MURFI,001,3046,
CurrentSubject2/ha01.jpg,1,CurrentSubject2/ha01.jpg,-0.2,,,,,,,,,,,,,,,,,,,,,,,,,0,2,2,9,,,,,,,,,,,2017_Jun_16_1333,59.936349711,ESOM_task_v1_nocontrol_MURFI,001,3046,
CurrentSubject2/ha01.jpg,0.85,CurrentSubject2/ha04.jpg,0.2,,,,,,,,,,,,,,,,,,,,,,,,,0,3,3,3,,,,,,,,,,,2017_Jun_16_1333,59.936349711,ESOM_task_v1_nocontrol_MURFI,001,3046,
CurrentSubject2/ha01.jpg,0.8,CurrentSubject2/ha05.jpg,0.3,,,,,,,,,,,,,,,,,,,,,,,,,0,4,4,2,,,,,,,,,,,2017_Jun_16_1333,59.936349711,ESOM_task_v1_nocontrol_MURFI,001,3046,
CurrentSubject2/ha01.jpg,0.8,CurrentSubject2/ha05.jpg,0.2,,,,,,,,,,,,,,,,,,,,,,,,,0,5,5,1,,,,,,,,,,,2017_Jun_16_1333,59.936349711,ESOM_task_v1_nocontrol_MURFI,001,3046,
CurrentSubject2/ha01.jpg,0.95,CurrentSubject2/ha02.jpg,0.1,,,,,,,,,,,,,,,,,,,,,,,,,0,6,6,6,,,,,,,,,,,2017_Jun_16_1333,59.936349711,ESOM_task_v1_nocontrol_MURFI,001,3046,
CurrentSubject2/ha01.jpg,0.95,CurrentSubject2/ha02.jpg,0,,,,,,,,,,,,,,,,,,,,,,,,,0,7,7,18,,,,,,,,,,,2017_Jun_16_1333,59.936349711,ESOM_task_v1_nocontrol_MURFI,001,3046,
CurrentSubject2/ha01.jpg,0.85,CurrentSubject2/ha04.jpg,0.2,,,,,,,,,,,,,,,,,,,,,,,,,0,8,8,16,,,,,,,,,,,2017_Jun_16_1333,59.936349711,ESOM_task_v1_nocontrol_MURFI,001,3046,
CurrentSubject2/ha01.jpg,0.8,CurrentSubject2/ha05.jpg,0.3,,,,,,,,,,,,,,,,,,,,,,,,,0,9,9,15,,,,,,,,,,,2017_Jun_16_1333,59.936349711,ESOM_task_v1_nocontrol_MURFI,001,3046,
CurrentSubject2/ha01.jpg,1,CurrentSubject2/ha01.jpg,0,,,,,,,,,,,,,,,,,,,,,,,,,0,10,10,7,,,,,,,,,,,2017_Jun_16_1333,59.936349711,ESOM_task_v1_nocontrol_MURFI,001,3046,
CurrentSubject2/ha01.jpg,0.75,CurrentSubject2/ha06.jpg,0.2,,,,,,,,,,,,,,,,,,,,,,,,,0,11,11,14,,,,,,,,,,,2017_Jun_16_1333,59.936349711,ESOM_task_v1_nocontrol_MURFI,001,3046,
CurrentSubject2/ha01.jpg,0.95,CurrentSubject2/ha02.jpg,-0.1,,,,,,,,,,,,,,,,,,,,,,,,,0,12,12,8,,,,,,,,,,,2017_Jun_16_1333,59.936349711,ESOM_task_v1_nocontrol_MURFI,001,3046,
CurrentSubject2/ha01.jpg,0.9,CurrentSubject2/ha03.jpg,0.3,,,,,,,,,,,,,,,,,,,,,,,,,0,13,13,4,,,,,,,,,,,2017_Jun_16_1333,59.936349711,ESOM_task_v1_nocontrol_MURFI,001,3046,
CurrentSubject2/ha01.jpg,0.9,CurrentSubject2/ha03.jpg,0.1,,,,,,,,,,,,,,,,,,,,,,,,,0,14,14,11,,,,,,,,,,,2017_Jun_16_1333,59.936349711,ESOM_task_v1_nocontrol_MURFI,001,3046,
CurrentSubject2/ha01.jpg,1,CurrentSubject2/ha01.jpg,-0.1,,,,,,,,,,,,,,,,,,,,,,,,,0,15,15,19,,,,,,,,,,,2017_Jun_16_1333,59.936349711,ESOM_task_v1_nocontrol_MURFI,001,3046,
CurrentSubject2/ha01.jpg,0.9,CurrentSubject2/ha03.jpg,0.1,,,,,,,,,,,,,,,,,,,,,,,,,0,16,16,17,,,,,,,,,,,2017_Jun_16_1333,59.936349711,ESOM_task_v1_nocontrol_MURFI,001,3046,
CurrentSubject2/ha01.jpg,0.9,CurrentSubject2/ha03.jpg,0.2,,,,,,,,,,,,,,,,,,,,,,,,,0,17,17,5,,,,,,,,,,,2017_Jun_16_1333,59.936349711,ESOM_task_v1_nocontrol_MURFI,001,3046,
CurrentSubject2/ha01.jpg,0.85,CurrentSubject2/ha04.jpg,0.2,,,,,,,,,,,,,,,,,,,,,,,,,0,18,18,12,,,,,,,,,,,2017_Jun_16_1333,59.936349711,ESOM_task_v1_nocontrol_MURFI,001,3046,
CurrentSubject2/ha01.jpg,0.75,CurrentSubject2/ha06.jpg,0.1,,,,,,,,,,,,,,,,,,,,,,,,,0,19,19,0,,,,,,,,,,,2017_Jun_16_1333,59.936349711,ESOM_task_v1_nocontrol_MURFI,001,3046,
,,,,,,,,,,,,,,,,,,,,,,,,,,,,,,,,,,,,,,,,2,1.41323270337,2017_Jun_16_1333,59.936349711,ESOM_task_v1_nocontrol_MURFI,001,3046,
CurrentSubject2/ha21.jpg,0.05,CurrentSubject2/ha20.jpg,,,,,,,,,,,,,,,,,,,,,,,,,,,,,,0,0,0,7,,,,,,,2017_Jun_16_1333,59.936349711,ESOM_task_v1_nocontrol_MURFI,001,3046,
CurrentSubject2/ha21.jpg,0.05,CurrentSubject2/ha20.jpg,,,,,,,,,,,,,,,,,,,,,,,,,,,,,,0,1,1,5,,,,,,,2017_Jun_16_1333,59.936349711,ESOM_task_v1_nocontrol_MURFI,001,3046,
CurrentSubject2/ha21.jpg,0.2,CurrentSubject2/ha17.jpg,,,,,,,,,,,,,,,,,,,,,,,,,,,,,,0,2,2,0,,,,,,,2017_Jun_16_1333,59.936349711,ESOM_task_v1_nocontrol_MURFI,001,3046,
CurrentSubject2/ha21.jpg,0.25,CurrentSubject2/ha16.jpg,,,,,,,,,,,,,,,,,,,,,,,,,,,,,,0,3,3,1,,,,,,,2017_Jun_16_1333,59.936349711,ESOM_task_v1_nocontrol_MURFI,001,3046,
CurrentSubject2/ha21.jpg,0.15,CurrentSubject2/ha18.jpg,,,,,,,,,,,,,,,,,,,,,,,,,,,,,,0,4,4,9,,,,,,,2017_Jun_16_1333,59.936349711,ESOM_task_v1_nocontrol_MURFI,001,3046,
CurrentSubject2/ha21.jpg,0.15,CurrentSubject2/ha18.jpg,,,,,,,,,,,,,,,,,,,,,,,,,,,,,,0,5,5,3,,,,,,,2017_Jun_16_1333,59.936349711,ESOM_task_v1_nocontrol_MURFI,001,3046,
CurrentSubject2/ha21.jpg,0,CurrentSubject2/ha21.jpg,,,,,,,,,,,,,,,,,,,,,,,,,,,,,,0,6,6,11,,,,,,,2017_Jun_16_1333,59.936349711,ESOM_task_v1_nocontrol_MURFI,001,3046,
CurrentSubject2/ha21.jpg,0,CurrentSubject2/ha21.jpg,,,,,,,,,,,,,,,,,,,,,,,,,,,,,,0,7,7,6,,,,,,,2017_Jun_16_1333,59.936349711,ESOM_task_v1_nocontrol_MURFI,001,3046,
CurrentSubject2/ha21.jpg,0.05,CurrentSubject2/ha20.jpg,,,,,,,,,,,,,,,,,,,,,,,,,,,,,,0,8,8,10,,,,,,,2017_Jun_16_1333,59.936349711,ESOM_task_v1_nocontrol_MURFI,001,3046,
CurrentSubject2/ha21.jpg,0.2,CurrentSubject2/ha17.jpg,,,,,,,,,,,,,,,,,,,,,,,,,,,,,,0,9,9,2,,,,,,,2017_Jun_16_1333,59.936349711,ESOM_task_v1_nocontrol_MURFI,001,3046,
CurrentSubject2/ha21.jpg,0.1,CurrentSubject2/ha19.jpg,,,,,,,,,,,,,,,,,,,,,,,,,,,,,,0,10,10,8,,,,,,,2017_Jun_16_1333,59.936349711,ESOM_task_v1_nocontrol_MURFI,001,3046,
CurrentSubject2/ha21.jpg,0.1,CurrentSubject2/ha19.jpg,,,,,,,,,,,,,,,,,,,,,,,,,,,,,,0,11,11,4,,,,,,,2017_Jun_16_1333,59.936349711,ESOM_task_v1_nocontrol_MURFI,001,3046,
,,,,,,,,,,,,,,,,,,,,,,,,,,,,,,,,,,,,,,,,None,,2017_Jun_16_1333,59.936349711,ESOM_task_v1_nocontrol_MURFI,001,3046,
